*******************************************************************************************************
Z     A     E(GeV)     Theta(deg)     Energy Loss(GeV)     Sigma(#mub/sr/GeV)     ERROR     Citation     
*******************************************************************************************************
6     12     0.68          61             0.0034              0                     0
6     12     0.68          61             0.0102              0                     0
6     12     0.68          61             0.017              0                     0
6     12     0.68          61             0.0238              0                     0
6     12     0.68          61             0.0306              0                     0
6     12     0.68          61             0.0374              0                     0
6     12     0.68          61             0.0442              0                     0
6     12     0.68          61             0.051              0                     0
6     12     0.68          61             0.0578              0                     0
6     12     0.68          61             0.0646              0                     0
6     12     0.68          61             0.0714              0                     0
6     12     0.68          61             0.0782              0                     0
6     12     0.68          61             0.085              0                     0
6     12     0.68          61             0.0918              0                     0
6     12     0.68          61             0.0986              15.3737                     5.12456
6     12     0.68          61             0.1054              40.9965                     8.36837
6     12     0.68          61             0.1122              153.737                     16.2053
6     12     0.68          61             0.119              244.271                     20.4269
6     12     0.68          61             0.1258              327.972                     23.6693
6     12     0.68          61             0.1326              452.669                     27.8073
6     12     0.68          61             0.1394              589.324                     31.7282
6     12     0.68          61             0.1462              869.467                     38.5384
6     12     0.68          61             0.153              874.591                     38.6518
6     12     0.68          61             0.1598              1088.11                     43.1127
6     12     0.68          61             0.1666              1368.26                     48.345
6     12     0.68          61             0.1734              1395.59                     48.8255
6     12     0.68          61             0.1802              1667.19                     53.3654
6     12     0.68          61             0.187              1750.89                     54.6886
6     12     0.68          61             0.1938              1819.22                     55.7455
6     12     0.68          61             0.2006              1933.67                     57.4723
6     12     0.68          61             0.2074              2001.99                     58.4789
6     12     0.68          61             0.2142              1902.92                     57.0135
6     12     0.68          61             0.221              1841.42                     56.0847
6     12     0.68          61             0.2278              1757.72                     54.7953
6     12     0.68          61             0.2346              1614.24                     52.5111
6     12     0.68          61             0.2414              1605.7                     52.372
6     12     0.68          61             0.2482              1351.18                     48.0423
6     12     0.68          61             0.255              1383.63                     48.6158
6     12     0.68          61             0.2618              1332.39                     47.707
6     12     0.68          61             0.2686              1202.56                     45.3233
6     12     0.68          61             0.2754              1147.9                     44.2813
6     12     0.68          61             0.2822              1101.78                     43.3826
6     12     0.68          61             0.289              1067.62                     42.7047
6     12     0.68          61             0.2958              982.207                     40.9609
6     12     0.68          61             0.3026              893.381                     39.0648
6     12     0.68          61             0.3094              884.841                     38.8777
6     12     0.68          61             0.3162              792.598                     36.7955
6     12     0.68          61             0.323              920.712                     39.6579
6     12     0.68          61             0.3298              859.218                     38.3106
6     12     0.68          61             0.3366              867.759                     38.5006
6     12     0.68          61             0.3434              809.68                     37.1898
6     12     0.68          61             0.3502              790.89                     36.7558
6     12     0.68          61             0.357              883.132                     38.8401
6     12     0.68          61             0.3638              946.335                     40.2059
6     12     0.68          61             0.3706              1009.54                     41.5269
6     12     0.68          61             0.3774              1071.03                     42.7729
6     12     0.68          61             0.3842              1093.24                     43.2141
6     12     0.68          61             0.391              1219.65                     45.6441
6     12     0.68          61             0.3978              1383.63                     48.6158
6     12     0.68          61             0.4046              1455.37                     49.8603
6     12     0.68          61             0.4114              1392.17                     48.7657
6     12     0.68          61             0.4182              1467.33                     50.0647
6     12     0.68          61             0.425              1580.07                     51.9525
6     12     0.68          61             0.4318              1544.2                     51.3593
6     12     0.68          61             0.4386              1515.16                     50.8741
6     12     0.68          61             0.4454              1528.83                     51.103
6     12     0.68          61             0.4522              1651.82                     53.1188
6     12     0.68          61             0.459              1542.49                     51.3309
6     12     0.68          61             0.4658              1602.28                     52.3163
6     12     0.68          61             0.4726              1528.83                     51.103
6     12     0.68          61             0.4794              1513.45                     50.8455
6     12     0.68          61             0.4862              1557.87                     51.5861
6     12     0.68          61             0.493              1515.16                     50.8741
6     12     0.68          61             0.4998              1409.25                     49.0639
6     12     0.68          61             0.5066              1322.14                     47.5232
6     12     0.68          61             0.5134              1323.84                     47.5539
6     12     0.68          61             0.5202              1313.6                     47.3695
6     12     0.68          61             0.527              1214.52                     45.5481
6     12     0.68          61             0.5338              1139.36                     44.1162
6     12     0.68          61             0.5406              1101.78                     43.3826
6     12     0.68          61             0.5474              1062.49                     42.602
6     12     0.68          61             0.5542              1077.87                     42.9092
6     12     0.68          61             0.561              1018.08                     41.7021
6     12     0.68          61             0.5678              884.841                     38.8777
6     12     0.68          61             0.5746              954.876                     40.387
6     12     0.68          61             0.5814              920.712                     39.6579
6     12     0.68          61             0.5882              862.634                     38.3867
6     12     0.68          61             0.595              862.634                     38.3867
6     12     0.68          61             0.6018              843.844                     37.9663
6     12     0.68          61             0.6086              848.969                     38.0814
6     12     0.68          61             0.6154              758.435                     35.9937
6     12     0.68          61             0.6222              837.011                     37.8123
6     12     0.68          61             0.629              785.766                     36.6365
6     12     0.68          61             0.6358              792.598                     36.7955
6     12     0.68          61             0.6426              855.801                     38.2344
6     12     0.68          61             0.6494              623.488                     32.6349
6     12     0.68          61             0.6562              0                     0
6     12     0.68          61             0.663              0                     0
6     12     0.68          61             0.6698              0                     0
*******************************************************************************************************
 Average angle 60.9654 +- 0.260555 deg 
 Average E' 0.304513 +- 0.00130143 GeV 
